Folder: Academia-de-Fisica-DFA/2025Experiencias/XRD/BulkXRD

Note: README.md
# Academia-de-Fisica-DFA
Ficheiros para a Academia de FÃ­sica no DFA

File: Bulk300K.chi
# chi_2theta chi_I
0.381611 4.11162
0.43392 9.24162
0.486228 9.5582
0.538537 10.7014
0.590846 10.5986
0.643154 10.9842
0.695463 10.4643
0.747772 10.4489
0.80008 10.4971
0.852389 9.79608
0.904698 9.55794
0.957006 9.88269
1.00931 9.93883
1.06162 9.74157
1.11393 10.1533
1.16624 9.92616
1.21855 10.1038
1.27086 10.0636
1.32317 10.3067
1.37548 10.3537
1.42778 10.6871
1.48009 10.7868
1.5324 11.1359
1.58471 11.6055
1.63702 12.4795
1.68933 15.4667
1.74164 19.0252
1.79394 17.222
1.84625 15.8769
1.89856 15.1509
1.95087 13.6503
2.00318 12.8149
2.05549 12.2722
2.1078 12.1856
2.16011 12.0944
2.21241 12.1563
2.26472 12.0637
2.31703 11.8884
2.36934 12.1222
2.42165 11.9782
2.47396 11.9997
2.52627 12.0957
2.57857 12.2677
2.63088 12.1776
2.68319 12.1818
2.7355 11.9444
2.78781 11.615
2.84012 11.5433
2.89243 11.394
2.94474 11.4222
2.99704 11.387
3.04935 11.3695
3.10166 11.6981
3.15397 11.8014
3.20628 11.8795
3.25859 12.1764
3.3109 12.5979
3.3632 13.2751
3.41551 13.9871
3.46782 14.8173
3.52013 15.3389
3.57244 16.1793
3.62475 16.9117
3.67706 18.1766
3.72937 19.9967
3.78167 22.5982
3.83398 26.2938
3.88629 32.634
3.9386 46.2719
3.99091 97.3001
4.04322 5207.18
4.09553 165.132
4.14783 51.8969
4.20014 37.1596
4.25245 30.4699
4.30476 27.5804
4.35707 27.1441
4.40938 27.9036
4.46169 30.2658
4.514 32.2325
4.5663 38.4084
4.61861 69.8259
4.67092 1919.31
4.72323 108.175
4.77554 32.585
4.82785 23.7542
4.88016 19.9809
4.93246 18.086
4.98477 16.7728
5.03708 15.9303
5.08939 15.4485
5.1417 14.9781
5.19401 14.4589
5.24632 14.2891
5.29863 13.7505
5.35093 13.2857
5.40324 13.1398
5.45555 12.9096
5.50786 12.8447
5.56017 12.8067
5.61248 12.8455
5.66479 12.5822
5.71709 12.7211
5.7694 12.8034
5.82171 12.9169
5.87402 13.1544
5.92633 13.4368
5.97864 13.6624
6.03095 13.9964
6.08326 14.3529
6.13556 14.9729
6.18787 15.4342
6.24018 16.0844
6.29249 16.9698
6.3448 18.12
6.39711 19.8342
6.44942 22.4976
6.50172 28.0746
6.55403 50.6174
6.60634 1059.99
6.65865 120.274
6.71096 34.3048
6.76327 26.4432
6.81558 23.4853
6.86789 22.086
6.92019 21.3264
6.9725 20.7607
7.02481 20.5962
7.07712 20.5603
7.12943 20.6754
7.18174 21.0396
7.23405 21.6568
7.28635 22.1404
7.33866 22.8813
7.39097 23.9218
7.44328 25.3291
7.49559 27.1666
7.5479 29.9131
7.60021 34.7501
7.65252 46.206
7.70482 111.032
7.75713 1749
7.80944 150.685
7.86175 49.1674
7.91406 37.8221
7.96637 34.2055
8.01868 35.6403
8.07098 90.4778
8.12329 357.03
8.1756 36.1563
8.22791 27.5522
8.28022 24.5184
8.33253 22.7271
8.38484 21.5893
8.43715 20.6309
8.48945 19.8101
8.54176 19.1895
8.59407 18.6212
8.64638 18.2393
8.69869 17.9979
8.751 17.6485
8.80331 17.5268
8.85561 17.3109
8.90792 17.0888
8.96023 17.0643
9.01254 17.1515
9.06485 17.1573
9.11716 17.4392
9.16947 17.9075
9.22178 18.9286
9.27408 21.5665
9.32639 49.554
9.3787 148.789
9.43101 26.437
9.48332 20.2753
9.53563 19.2671
9.58794 19.068
9.64024 19.1283
9.69255 19.5079
9.74486 19.94
9.79717 20.435
9.84948 21.4081
9.90179 22.2433
9.9541 23.5036
10.0064 25.3754
10.0587 27.9838
10.111 33.7464
10.1633 76.1584
10.2156 444.566
10.2679 52.2043
10.3203 39.6269
10.3726 44.1201
10.4249 101.246
10.4772 621.331
10.5295 78.4683
10.5818 37.5481
10.6341 30.85
10.6864 27.8957
10.7387 26.0829
10.791 25.0237
10.8433 24.2749
10.8957 23.731
10.948 23.3725
11.0003 23.1245
11.0526 22.8834
11.1049 23.0848
11.1572 23.3319
11.2095 23.857
11.2618 24.5533
11.3141 25.855
11.3664 28.6229
11.4187 44.6273
11.471 289.225
11.5234 60.9807
11.5757 29.758
11.628 26.1201
11.6803 24.7468
11.7326 24.0421
11.7849 23.8882
11.8372 23.9043
11.8895 24.1634
11.9418 24.8805
11.9941 26.4728
12.0464 30.081
12.0988 43.9022
12.1511 211.371
12.2034 213.408
12.2557 41.3185
12.308 28.3519
12.3603 24.6561
12.4126 22.8097
12.4649 21.6347
12.5172 20.8075
12.5695 20.2877
12.6218 19.89
12.6741 19.6823
12.7265 19.3583
12.7788 19.38
12.8311 19.1891
12.8834 19.1813
12.9357 19.3272
12.988 19.7706
13.0403 19.8748
13.0926 20.3155
13.1449 21.1142
13.1972 23.8661
13.2495 57.9375
13.3019 34.9065
13.3542 23.3476
13.4065 23.0417
13.4588 23.4025
13.5111 23.7915
13.5634 24.7144
13.6157 26.1055
13.668 27.9107
13.7203 31.1048
13.7726 38.2103
13.8249 83.6696
13.8772 345.447
13.9296 75.8191
13.9819 45.4157
14.0342 82.989
14.0865 137.468
14.1388 39.5632
14.1911 31.1822
14.2434 28.6217
14.2957 27.2287
14.348 26.5336
14.4003 25.7793
14.4526 25.1041
14.505 25.2219
14.5573 24.9268
14.6096 25.4221
14.6619 26.0862
14.7142 28.4715
14.7665 38.7955
14.8188 126.492
14.8711 86.7912
14.9234 32.5652
14.9757 26.1044
15.028 24.7789
15.0803 23.8545
15.1327 23.2092
15.185 23.0522
15.2373 23.7886
15.2896 24.9731
15.3419 40.4063
15.3942 83.3925
15.4465 31.1714
15.4988 32.8721
15.5511 79.8908
15.6034 48.0083
15.6557 27.6426
15.6819 24.4147